File: Dataset/XRD/2882a CFA - Sodalite/2882a CFA - Sodalite.xy
10.00000 255.000
10.06138 209.000
10.12275 223.000
10.18413 207.000
10.24550 226.000
10.30688 240.000
10.36826 253.000
10.42963 214.000
10.49101 227.000
10.55238 221.000
10.61376 223.000
10.67514 219.000
10.73651 235.000
10.79789 236.000
10.85926 209.000
10.92064 264.000
10.98202 207.000
11.04339 211.000
11.10477 205.000
11.16614 240.000
11.22752 244.000
11.28890 234.000
11.35027 225.000
11.41165 215.000
11.47302 199.000
11.53440 253.000
11.59578 229.000
11.65715 222.000
11.71853 209.000
11.77990 231.000
11.84128 258.000
11.90266 240.000
11.96403 232.000
12.02541 219.000
12.08678 224.000
12.14816 251.000
12.20954 245.000
12.27091 223.000
12.33229 231.000
12.39366 255.000
12.45504 260.000
12.51642 244.000
12.57779 237.000
12.63917 233.000
12.70054 229.000
12.76192 269.000
12.82330 227.000
12.88467 259.000
12.94605 231.000
13.00742 251.000
13.06880 265.000
13.13017 244.000
13.19155 262.000
13.25293 246.000
13.31430 247.000
13.37568 233.000
13.43705 242.000
13.49843 266.000
13.55981 262.000
13.62118 241.000
13.68256 238.000
13.74393 269.000
13.80531 225.000
13.86669 261.000
13.92806 243.000
13.98944 231.000
14.05081 231.000
14.11219 267.000
14.17357 238.000
14.23494 193.000
14.29632 233.000
14.35769 257.000
14.41907 243.000
14.48045 238.000
14.54182 247.000
14.60320 248.000
14.66457 290.000
14.72595 243.000
14.78733 279.000
14.84870 232.000
14.91008 218.000
14.97145 253.000
15.03283 243.000
15.09421 248.000
15.15558 248.000
15.21696 239.000
15.27833 250.000
15.33971 252.000
15.40109 233.000
15.46246 256.000
15.52384 262.000
15.58521 259.000
15.64659 247.000
15.70797 262.000
15.76934 240.000
15.83072 269.000
15.89209 238.000
15.95347 246.000
16.01485 297.000
16.07622 285.000
16.13760 292.000
16.19897 275.000
16.26035 328.000
16.32173 336.000
16.38310 322.000
16.44448 322.000
16.50585 353.000
16.56723 291.000
16.62861 292.000
16.68998 268.000
16.75136 260.000
16.81273 272.000
16.87411 269.000
16.93549 289.000
16.99686 240.000
17.05824 257.000
17.11961 244.000
17.18099 260.000
17.24237 257.000
17.30374 265.000
17.36512 246.000
17.42649 285.000
17.48787 252.000
17.54925 274.000
17.61062 276.000
17.67200 285.000
17.73337 251.000
17.79475 279.000
17.85613 273.000
17.91750 271.000
17.97888 260.000
18.04025 277.000
18.10163 280.000
18.16301 298.000
18.22438 253.000
18.28576 285.000
18.34713 280.000
18.40851 310.000
18.46989 325.000
18.53126 292.000
18.59264 266.000
18.65401 267.000
18.71539 310.000
18.77677 317.000
18.83814 306.000
18.89952 278.000
18.96089 343.000
19.02227 332.000
19.08365 342.000
19.14502 320.000
19.20640 323.000
19.26777 291.000
19.32915 309.000
19.39052 331.000
19.45190 340.000
19.51328 319.000
19.57465 342.000
19.63603 366.000
19.69740 382.000
19.75878 420.000
19.82016 376.000
19.88153 398.000
19.94291 389.000
20.00428 358.000
20.06566 413.000
20.12704 341.000
20.18841 388.000
20.24979 363.000
20.31116 393.000
20.37254 344.000
20.43392 350.000
20.49529 354.000
20.55667 338.000
20.61804 407.000
20.67942 565.000
20.74080 1015.000
20.80217 2215.000
20.86355 2289.000
20.92492 856.000
20.98630 434.000
21.04768 398.000
21.10905 387.000
21.17043 401.000
21.23180 371.000
21.29318 352.000
21.35456 399.000
21.41593 380.000
21.47731 374.000
21.53868 391.000
21.60006 347.000
21.66144 400.000
21.72281 371.000
21.78419 362.000
21.84556 374.000
21.90694 387.000
21.96832 388.000
22.02969 423.000
22.09107 372.000
22.15244 392.000
22.21382 368.000
22.27520 398.000
22.33657 370.000
22.39795 391.000
22.45932 362.000
22.52070 363.000
22.58208 394.000
22.64345 371.000
22.70483 374.000
22.76620 379.000
22.82758 366.000
22.88896 381.000
22.95033 364.000
23.01171 388.000
23.07308 365.000
23.13446 377.000
23.19584 389.000
23.25721 420.000
23.31859 400.000
23.37996 394.000
23.44134 395.000
23.50272 430.000
23.56409 429.000
23.62547 412.000
23.68684 421.000
23.74822 370.000
23.80960 397.000
23.87097 419.000
23.93235 448.000
23.99372 518.000
24.05510 527.000
24.11648 496.000
24.17785 517.000
24.23923 457.000
24.30060 411.000
24.36198 401.000
24.42336 393.000
24.48473 416.000
24.54611 384.000
24.60748 405.000
24.66886 405.000
24.73024 394.000
24.79161 427.000
24.85299 406.000
24.91436 412.000
24.97574 404.000
25.03712 426.000
25.09849 435.000
25.15987 499.000
25.22124 633.000
25.28262 731.000
25.34400 695.000
25.40537 596.000
25.46675 561.000
25.52812 524.000
25.58950 552.000
25.65087 546.000
25.71225 611.000
25.77363 691.000
25.83500 738.000
25.89638 787.000
25.95775 782.000
26.01913 792.000
26.08051 786.000
26.14188 809.000
26.20326 842.000
26.26463 892.000
26.32601 900.000
26.38739 1056.000
26.44876 1612.000
26.51014 3831.000
26.57151 10784.000
26.63289 13824.000
26.69427 6738.000
26.75564 1671.000
26.81702 868.000
26.87839 680.000
26.93977 585.000
27.00115 586.000
27.06252 540.000
27.12390 540.000
27.18527 495.000
27.24665 481.000
27.30803 524.000
27.36940 537.000
27.43078 549.000
27.49215 507.000
27.55353 489.000
27.61491 465.000
27.67628 527.000
27.73766 464.000
27.79903 484.000
27.86041 479.000
27.92179 485.000
27.98316 504.000
28.04454 453.000
28.10591 449.000
28.16729 443.000
28.22867 448.000
28.29004 430.000
28.35142 408.000
28.41279 430.000
28.47417 409.000
28.53555 427.000
28.59692 417.000
28.65830 401.000
28.71967 379.000
28.78105 366.000
28.84243 432.000
28.90380 404.000
28.96518 370.000
29.02655 390.000
29.08793 395.000
29.14931 377.000
29.21068 383.000
29.27206 388.000
29.33343 383.000
29.39481 425.000
29.45619 408.000
29.51756 422.000
29.57894 397.000
29.64031 405.000
29.70169 455.000
29.76307 444.000
29.82444 465.000
29.88582 484.000
29.94719 419.000
30.00857 450.000
30.06995 422.000
30.13132 411.000
30.19270 458.000
30.25407 464.000
30.31545 450.000
30.37683 451.000
30.43820 460.000
30.49958 442.000
30.56095 464.000
30.62233 378.000
30.68371 449.000
30.74508 456.000
30.80646 505.000
30.86783 559.000
30.92921 576.000
30.99059 625.000
31.05196 656.000
31.11334 613.000
31.17471 585.000
31.23609 546.000
31.29747 564.000
31.35884 506.000
31.42022 490.000
31.48159 453.000
31.54297 462.000
31.60434 414.000
31.66572 432.000
31.72710 415.000
31.78847 409.000
31.84985 445.000
31.91122 401.000
31.97260 365.000
32.03398 381.000
32.09535 429.000
32.15673 395.000
32.21810 415.000
32.27948 403.000
32.34086 403.000
32.40223 396.000
32.46361 408.000
32.52498 398.000
32.58636 445.000
32.64774 436.000
32.70911 458.000
32.77049 480.000
32.83186 451.000
32.89324 499.000
32.95462 545.000
33.01599 611.000
33.07737 811.000
33.13874 978.000
33.20012 810.000
33.26150 656.000
33.32287 575.000
33.38425 524.000
33.44562 444.000
33.50700 440.000
33.56838 393.000
33.62975 413.000
33.69113 350.000
33.75250 372.000
33.81388 333.000
33.87526 380.000
33.93663 360.000
33.99801 355.000
34.05938 383.000
34.12076 401.000
34.18214 368.000
34.24351 367.000
34.30489 394.000
34.36626 389.000
34.42764 358.000
34.48902 368.000
34.55039 414.000
34.61177 406.000
34.67314 363.000
34.73452 408.000
34.79590 438.000
34.85727 432.000
34.91865 442.000
34.98002 465.000
35.04140 513.000
35.10278 547.000
35.16415 672.000
35.22553 589.000
35.28690 696.000
35.34828 667.000
35.40966 667.000
35.47103 696.000
35.53241 809.000
35.59378 892.000
35.65516 853.000
35.71654 805.000
35.77791 690.000
35.83929 604.000
35.90066 540.000
35.96204 579.000
36.02342 564.000
36.08479 569.000
36.14617 602.000
36.20754 591.000
36.26892 573.000
36.33030 677.000
36.39167 892.000
36.45305 1493.000
36.51442 1905.000
36.57580 1477.000
36.63718 1115.000
36.69855 826.000
36.75993 804.000
36.82130 746.000
36.88268 729.000
36.94406 625.000
37.00543 670.000
37.06681 589.000
37.12818 537.000
37.18956 500.000
37.25094 465.000
37.31231 511.000
37.37369 440.000
37.43506 430.000
37.49644 433.000
37.55782 433.000
37.61919 428.000
37.68057 406.000
37.74194 431.000
37.80332 441.000
37.86469 410.000
37.92607 342.000
37.98745 366.000
38.04882 342.000
38.11020 331.000
38.17157 343.000
38.23295 315.000
38.29433 329.000
38.35570 304.000
38.41708 342.000
38.47845 369.000
38.53983 336.000
38.60121 335.000
38.66258 353.000
38.72396 327.000
38.78533 337.000
38.84671 328.000
38.90809 364.000
38.96946 345.000
39.03084 374.000
39.09221 390.000
39.15359 385.000
39.21497 479.000
39.27634 554.000
39.33772 756.000
39.39909 1367.000
39.46047 1338.000
39.52185 1041.000
39.58322 590.000
39.64460 400.000
39.70597 364.000
39.76735 297.000
39.82873 343.000
39.89010 337.000
39.95148 325.000
40.01285 382.000
40.07423 395.000
40.13561 458.000
40.19698 706.000
40.25836 898.000
40.31973 716.000
40.38111 583.000
40.44249 439.000
40.50386 403.000
40.56524 423.000
40.62661 458.000
40.68799 574.000
40.74937 612.000
40.81074 737.000
40.87212 729.000
40.93349 666.000
40.99487 555.000
41.05625 497.000
41.11762 493.000
41.17900 430.000
41.24037 392.000
41.30175 362.000
41.36313 362.000
41.42450 332.000
41.48588 353.000
41.54725 335.000
41.60863 334.000
41.67001 293.000
41.73138 302.000
41.79276 354.000
41.85413 313.000
41.91551 335.000
41.97689 335.000
42.03826 354.000
42.09964 362.000
42.16101 452.000
42.22239 469.000
42.28377 592.000
42.34514 957.000
42.40652 1220.000
42.46789 1025.000
42.52927 790.000
42.59065 534.000
42.65202 421.000
42.71340 374.000
42.77477 361.000
42.83615 378.000
42.89753 364.000
42.95890 369.000
43.02028 369.000
43.08165 359.000
43.14303 365.000
43.20441 342.000
43.26578 329.000
43.32716 324.000
43.38853 339.000
43.44991 320.000
43.51129 306.000
43.57266 309.000
43.63404 314.000
43.69541 315.000
43.75679 342.000
43.81817 296.000
43.87954 292.000
43.94092 304.000
44.00229 336.000
44.06367 348.000
44.12504 374.000
44.18642 345.000
44.24780 407.000
44.30917 419.000
44.37055 401.000
44.43192 452.000
44.49330 431.000
44.55468 470.000
44.61605 483.000
44.67743 476.000
44.73880 470.000
44.80018 455.000
44.86156 453.000
44.92293 424.000
44.98431 471.000
45.04568 444.000
45.10706 411.000
45.16844 374.000
45.22981 406.000
45.29119 370.000
45.35256 401.000
45.41394 351.000
45.47532 348.000
45.53669 387.000
45.59807 465.000
45.65944 676.000
45.72082 960.000
45.78220 890.000
45.84357 640.000
45.90495 553.000
45.96632 390.000
46.02770 347.000
46.08908 348.000
46.15045 295.000
46.21183 337.000
46.27320 328.000
46.33458 312.000
46.39596 336.000
46.45733 302.000
46.51871 332.000
46.58008 297.000
46.64146 298.000
46.70284 302.000
46.76421 287.000
46.82559 288.000
46.88696 326.000
46.94834 277.000
47.00972 252.000
47.07109 300.000
47.13247 310.000
47.19384 283.000
47.25522 292.000
47.31660 253.000
47.37797 289.000
47.43935 264.000
47.50072 303.000
47.56210 291.000
47.62348 275.000
47.68485 273.000
47.74623 332.000
47.80760 314.000
47.86898 332.000
47.93036 335.000
47.99173 393.000
48.05311 393.000
48.11448 354.000
48.17586 341.000
48.23724 306.000
48.29861 312.000
48.35999 301.000
48.42136 296.000
48.48274 280.000
48.54412 299.000
48.60549 297.000
48.66687 297.000
48.72824 310.000
48.78962 302.000
48.85100 310.000
48.91237 289.000
48.97375 310.000
49.03512 311.000
49.09650 309.000
49.15788 350.000
49.21925 369.000
49.28063 414.000
49.34200 469.000
49.40338 449.000
49.46476 478.000
49.52613 496.000
49.58751 404.000
49.64888 403.000
49.71026 399.000
49.77164 399.000
49.83301 458.000
49.89439 581.000
49.95576 843.000
50.01714 1569.000
50.07851 2769.000
50.13989 2105.000
50.20127 1643.000
50.26264 1169.000
50.32402 486.000
50.38539 367.000
50.44677 335.000
50.50815 299.000
50.56952 334.000
50.63090 294.000
50.69227 310.000
50.75365 294.000
50.81503 298.000
50.87640 274.000
50.93778 289.000
50.99915 272.000
51.06053 291.000
51.12191 276.000
51.18328 305.000
51.24466 312.000
51.30603 266.000
51.36741 262.000
51.42879 294.000
51.49016 260.000
51.55154 288.000
51.61291 280.000
51.67429 273.000
51.73567 269.000
51.79704 260.000
51.85842 288.000
51.91979 296.000
51.98117 260.000
52.04255 281.000
52.10392 261.000
52.16530 296.000
52.22667 255.000
52.28805 287.000
52.34943 278.000
52.41080 280.000
52.47218 296.000
52.53355 290.000
52.59493 274.000
52.65631 294.000
52.71768 291.000
52.77906 292.000
52.84043 319.000
52.90181 307.000
52.96319 292.000
53.02456 300.000
53.08594 316.000
53.14731 328.000
53.20869 365.000
53.27007 335.000
53.33144 340.000
53.39282 376.000
53.45419 366.000
53.51557 382.000
53.57695 422.000
53.63832 415.000
53.69970 438.000
53.76107 523.000
53.82245 501.000
53.88383 578.000
53.94520 617.000
54.00658 652.000
54.06795 677.000
54.12933 592.000
54.19071 559.000
54.25208 514.000
54.31346 498.000
54.37483 458.000
54.43621 443.000
54.49759 421.000
54.55896 365.000
54.62034 431.000
54.68171 514.000
54.74309 752.000
54.80447 987.000
54.86584 971.000
54.92722 767.000
54.98859 745.000
55.04997 584.000
55.11135 520.000
55.17272 551.000
55.23410 606.000
55.29547 705.000
55.35685 573.000
55.41823 556.000
55.47960 477.000
55.54098 350.000
55.60235 369.000
55.66373 341.000
55.72511 362.000
55.78648 377.000
55.84786 369.000
55.90923 317.000
55.97061 367.000
56.03199 353.000
56.09336 326.000
56.15474 330.000
56.21611 342.000
56.27749 322.000
56.33886 347.000
56.40024 363.000
56.46162 345.000
56.52299 393.000
56.58437 384.000
56.64574 383.000
56.70712 365.000
56.76850 394.000
56.82987 371.000
56.89125 405.000
56.95262 382.000
57.01400 394.000
57.07538 394.000
57.13675 416.000
57.19813 429.000
57.25950 476.000
57.32088 462.000
57.38226 466.000
57.44363 469.000
57.50501 474.000
57.56638 504.000
57.62776 461.000
57.68914 432.000
57.75051 424.000
57.81189 432.000
57.87326 404.000
57.93464 369.000
57.99602 385.000
58.05739 416.000
58.11877 385.000
58.18014 415.000
58.24152 373.000
58.30290 400.000
58.36427 402.000
58.42565 405.000
58.48702 453.000
58.54840 413.000
58.60978 458.000
58.67115 390.000
58.73253 467.000
58.79390 423.000
58.85528 512.000
58.91666 501.000
58.97803 516.000
59.03941 526.000
59.10078 533.000
59.16216 476.000
59.22354 517.000
59.28491 509.000
59.34629 477.000
59.40766 509.000
59.46904 563.000
59.53042 567.000
59.59179 571.000
59.65317 622.000
59.71454 783.000
59.77592 1108.000
59.83730 1636.000
59.89867 2195.000
59.96005 1884.000
60.02142 1367.000
60.08280 1296.000
60.14418 878.000
60.20555 654.000
60.26693 560.000
60.32830 549.000
60.38968 576.000
60.45106 593.000
60.51243 647.000
60.57381 657.000
60.63518 671.000
60.69656 592.000
60.75794 598.000
60.81931 546.000
60.88069 532.000
60.94206 536.000
61.00344 450.000
61.06482 477.000
61.12619 462.000
61.18757 432.000
61.24894 444.000
61.31032 361.000
61.37170 403.000
61.43307 406.000
61.49445 431.000
61.55582 360.000
61.61720 443.000
61.67858 362.000
61.73995 369.000
61.80133 408.000
61.86270 403.000
61.92408 383.000
61.98546 395.000
62.04683 420.000
62.10821 409.000
62.16958 484.000
62.23096 454.000
62.29234 467.000
62.35371 528.000
62.41509 518.000
62.47646 570.000
62.53784 565.000
62.59921 502.000
62.66059 532.000
62.72197 534.000
62.78334 470.000
62.84472 440.000
62.90609 467.000
62.96747 480.000
63.02885 431.000
63.09022 424.000
63.15160 431.000
63.21297 453.000
63.27435 430.000
63.33573 438.000
63.39710 471.000
63.45848 464.000
63.51985 486.000
63.58123 453.000
63.64261 523.000
63.70398 501.000
63.76536 461.000
63.82673 621.000
63.88811 663.000
63.94949 883.000
64.01086 810.000
64.07224 742.000
64.13361 715.000
64.19499 721.000
64.25637 563.000
64.31774 562.000
64.37912 574.000
64.44049 591.000
64.50187 623.000
64.56325 682.000
64.62462 701.000
64.68600 681.000
64.74737 668.000
64.80875 670.000
64.87013 654.000
64.93150 695.000
64.99288 676.000
65.05425 682.000
65.11563 638.000
65.17701 692.000
65.23838 621.000
65.29976 600.000
65.36113 616.000
65.42251 576.000
65.48389 571.000
65.54526 591.000
65.60664 596.000
65.66801 609.000
65.72939 652.000
65.79077 594.000
65.85214 564.000
65.91352 561.000
65.97489 538.000
66.03627 536.000
66.09765 522.000
66.15902 530.000
66.22040 521.000
66.28177 541.000
66.34315 524.000
66.40453 522.000
66.46590 529.000
66.52728 523.000
66.58865 494.000
66.65003 450.000
66.71141 485.000
66.77278 515.000
66.83416 479.000
66.89553 448.000
66.95691 447.000
67.01829 490.000
67.07966 457.000
67.14104 452.000
67.20241 494.000
67.26379 463.000
67.32517 512.000
67.38654 508.000
67.44792 558.000
67.50929 645.000
67.57067 881.000
67.63205 1341.000
67.69342 1473.000
67.75480 1118.000
67.81617 1003.000
67.87755 1135.000
67.93893 1079.000
68.00030 1313.000
68.06168 1873.000
68.12305 1944.000
68.18443 1565.000
68.24581 1757.000
68.30718 1621.000
68.36856 1042.000
68.42993 869.000
68.49131 706.000
68.55268 520.000
68.61406 387.000
68.67544 406.000
68.73681 400.000
68.79819 421.000
68.85956 369.000
68.92094 385.000
68.98232 411.000
69.04369 399.000
69.10507 367.000
69.16644 387.000
69.22782 383.000
69.28920 377.000
69.35057 363.000
69.41195 379.000
69.47332 404.000
69.53470 394.000
69.59608 406.000
69.65745 388.000
69.71883 403.000
69.78020 387.000
69.84158 390.000
69.90296 391.000
69.96433 395.000
70.02571 408.000
70.08708 407.000
70.14846 386.000
70.20984 389.000
70.27121 449.000
70.33259 434.000
70.39396 460.000
70.45534 414.000
70.51672 388.000
70.57809 410.000
70.63947 404.000
70.70084 383.000
70.76222 418.000
70.82360 435.000
70.88497 411.000
70.94635 419.000
71.00772 373.000
71.06910 409.000
71.13048 390.000
71.19185 419.000
71.25323 375.000
71.31460 370.000
71.37598 367.000
71.43736 358.000
71.49873 362.000
71.56011 370.000
71.62148 371.000
71.68286 344.000
71.74424 404.000
71.80561 399.000
71.86699 396.000
71.92836 405.000
71.98974 361.000
72.05112 375.000
72.11249 362.000
72.17387 381.000
72.23524 352.000
72.29662 358.000
72.35800 354.000
72.41937 338.000
72.48075 332.000
72.54212 337.000
72.60350 357.000
72.66488 314.000
72.72625 321.000
72.78763 330.000
72.84900 354.000
72.91038 352.000
72.97176 327.000
73.03313 313.000
73.09451 366.000
73.15588 378.000
73.21726 400.000
73.27864 446.000
73.34001 551.000
73.40139 743.000
73.46276 672.000
73.52414 545.000
73.58552 545.000
73.64689 615.000
73.70827 449.000
73.76964 433.000
73.83102 395.000
73.89240 409.000
73.95377 424.000
74.01515 456.000
74.07652 433.000
74.13790 424.000
74.19928 428.000
74.26065 421.000
74.32203 441.000
74.38340 446.000
74.44478 435.000
74.50616 410.000
74.56753 400.000
74.62891 393.000
74.69028 466.000
74.75166 451.000
74.81303 417.000
74.87441 444.000
74.93579 462.000
74.99716 523.000
75.05854 459.000
75.11991 485.000
75.18129 476.000
75.24267 487.000
75.30404 485.000
75.36542 510.000
75.42679 594.000
75.48817 720.000
75.54955 846.000
75.61092 958.000
75.67230 711.000
75.73367 591.000
75.79505 651.000
75.85643 542.000
75.91780 440.000
75.97918 418.000
76.04055 366.000
76.10193 360.000
76.16331 328.000
76.22468 344.000
76.28606 319.000
76.34743 346.000
76.40881 353.000
76.47019 356.000
76.53156 352.000
76.59294 342.000
76.65431 371.000
76.71569 356.000
76.77707 350.000
76.83844 368.000
76.89982 365.000
76.96119 349.000
77.02257 412.000
77.08395 358.000
77.14532 395.000
77.20670 368.000
77.26807 376.000
77.32945 369.000
77.39083 390.000
77.45220 438.000
77.51358 489.000
77.57495 609.000
77.63633 576.000
77.69771 455.000
77.75908 437.000
77.82046 487.000
77.88183 420.000
77.94321 349.000
78.00459 329.000
78.06596 342.000
78.12734 312.000
78.18871 318.000
78.25009 317.000
78.31147 321.000
78.37284 331.000
78.43422 307.000
78.49559 317.000
78.55697 265.000
78.61835 304.000
78.67972 313.000
78.74110 283.000
78.80247 297.000
78.86385 294.000
78.92523 311.000
78.98660 304.000
79.04798 284.000
79.10935 276.000
79.17073 285.000
79.23211 297.000
79.29348 301.000
79.35486 281.000
79.41623 303.000
79.47761 328.000
79.53899 343.000
79.60036 409.000
79.66174 467.000
79.72311 625.000
79.78449 756.000
79.84587 868.000
79.90724 665.000
79.96862 619.000
80.00953 646.000