File: Dataset/XRD/2882a CFA - Sodalite/2882a CFA - Sodalite_1.xy
10.00000 229.000
10.06138 227.000
10.12275 251.000
10.18413 218.000
10.24550 263.000
10.30688 238.000
10.36826 224.000
10.42963 238.000
10.49101 232.000
10.55238 243.000
10.61376 227.000
10.67514 237.000
10.73651 255.000
10.79789 224.000
10.85926 243.000
10.92064 218.000
10.98202 265.000
11.04339 221.000
11.10477 225.000
11.16614 220.000
11.22752 233.000
11.28890 222.000
11.35027 226.000
11.41165 258.000
11.47302 238.000
11.53440 228.000
11.59578 230.000
11.65715 249.000
11.71853 210.000
11.77990 229.000
11.84128 237.000
11.90266 229.000
11.96403 195.000
12.02541 238.000
12.08678 248.000
12.14816 220.000
12.20954 223.000
12.27091 214.000
12.33229 223.000
12.39366 262.000
12.45504 249.000
12.51642 239.000
12.57779 251.000
12.63917 269.000
12.70054 220.000
12.76192 236.000
12.82330 264.000
12.88467 238.000
12.94605 247.000
13.00742 239.000
13.06880 256.000
13.13017 250.000
13.19155 265.000
13.25293 227.000
13.31430 252.000
13.37568 261.000
13.43705 215.000
13.49843 248.000
13.55981 232.000
13.62118 255.000
13.68256 248.000
13.74393 239.000
13.80531 260.000
13.86669 246.000
13.92806 270.000
13.98944 240.000
14.05081 237.000
14.11219 222.000
14.17357 263.000
14.23494 235.000
14.29632 257.000
14.35769 240.000
14.41907 257.000
14.48045 224.000
14.54182 239.000
14.60320 230.000
14.66457 244.000
14.72595 237.000
14.78733 269.000
14.84870 248.000
14.91008 283.000
14.97145 245.000
15.03283 241.000
15.09421 269.000
15.15558 271.000
15.21696 254.000
15.27833 261.000
15.33971 266.000
15.40109 267.000
15.46246 273.000
15.52384 235.000
15.58521 260.000
15.64659 250.000
15.70797 272.000
15.76934 259.000
15.83072 264.000
15.89209 292.000
15.95347 287.000
16.01485 271.000
16.07622 300.000
16.13760 299.000
16.19897 309.000
16.26035 336.000
16.32173 340.000
16.38310 335.000
16.44448 367.000
16.50585 345.000
16.56723 301.000
16.62861 283.000
16.68998 303.000
16.75136 286.000
16.81273 275.000
16.87411 267.000
16.93549 281.000
16.99686 271.000
17.05824 250.000
17.11961 270.000
17.18099 280.000
17.24237 277.000
17.30374 265.000
17.36512 268.000
17.42649 262.000
17.48787 266.000
17.54925 285.000
17.61062 275.000
17.67200 254.000
17.73337 277.000
17.79475 298.000
17.85613 280.000
17.91750 283.000
17.97888 271.000
18.04025 311.000
18.10163 289.000
18.16301 298.000
18.22438 298.000
18.28576 289.000
18.34713 278.000
18.40851 289.000
18.46989 307.000
18.53126 315.000
18.59264 289.000
18.65401 284.000
18.71539 349.000
18.77677 347.000
18.83814 343.000
18.89952 373.000
18.96089 338.000
19.02227 347.000
19.08365 320.000
19.14502 332.000
19.20640 337.000
19.26777 322.000
19.32915 321.000
19.39052 319.000
19.45190 327.000
19.51328 333.000
19.57465 371.000
19.63603 400.000
19.69740 384.000
19.75878 387.000
19.82016 405.000
19.88153 398.000
19.94291 361.000
20.00428 401.000
20.06566 336.000
20.12704 362.000
20.18841 400.000
20.24979 387.000
20.31116 379.000
20.37254 403.000
20.43392 395.000
20.49529 379.000
20.55667 383.000
20.61804 445.000
20.67942 595.000
20.74080 1041.000
20.80217 2435.000
20.86355 2718.000
20.92492 1017.000
20.98630 471.000
21.04768 394.000
21.10905 358.000
21.17043 370.000
21.23180 396.000
21.29318 359.000
21.35456 354.000
21.41593 378.000
21.47731 366.000
21.53868 361.000
21.60006 352.000
21.66144 370.000
21.72281 384.000
21.78419 365.000
21.84556 416.000
21.90694 427.000
21.96832 418.000
22.02969 429.000
22.09107 396.000
22.15244 369.000
22.21382 389.000
22.27520 347.000
22.33657 417.000
22.39795 397.000
22.45932 395.000
22.52070 384.000
22.58208 348.000
22.64345 398.000
22.70483 364.000
22.76620 388.000
22.82758 425.000
22.88896 371.000
22.95033 383.000
23.01171 393.000
23.07308 391.000
23.13446 405.000
23.19584 379.000
23.25721 364.000
23.31859 389.000
23.37996 389.000
23.44134 412.000
23.50272 403.000
23.56409 448.000
23.62547 427.000
23.68684 387.000
23.74822 381.000
23.80960 372.000
23.87097 426.000
23.93235 442.000
23.99372 539.000
24.05510 507.000
24.11648 544.000
24.17785 534.000
24.23923 460.000
24.30060 400.000
24.36198 457.000
24.42336 426.000
24.48473 420.000
24.54611 427.000
24.60748 425.000
24.66886 399.000
24.73024 376.000
24.79161 433.000
24.85299 400.000
24.91436 426.000
24.97574 452.000
25.03712 416.000
25.09849 482.000
25.15987 513.000
25.22124 604.000
25.28262 778.000
25.34400 695.000
25.40537 566.000
25.46675 570.000
25.52812 500.000
25.58950 497.000
25.65087 558.000
25.71225 645.000
25.77363 691.000
25.83500 768.000
25.89638 778.000
25.95775 820.000
26.01913 781.000
26.08051 857.000
26.14188 868.000
26.20326 878.000
26.26463 883.000
26.32601 883.000
26.38739 1005.000
26.44876 1591.000
26.51014 3991.000
26.57151 10932.000
26.63289 14633.000
26.69427 7441.000
26.75564 1840.000
26.81702 856.000
26.87839 675.000
26.93977 604.000
27.00115 538.000
27.06252 486.000
27.12390 495.000
27.18527 474.000
27.24665 480.000
27.30803 428.000
27.36940 481.000
27.43078 575.000
27.49215 526.000
27.55353 537.000
27.61491 487.000
27.67628 482.000
27.73766 459.000
27.79903 506.000
27.86041 493.000
27.92179 508.000
27.98316 515.000
28.04454 479.000
28.10591 453.000
28.16729 415.000
28.22867 450.000
28.29004 439.000
28.35142 404.000
28.41279 396.000
28.47417 419.000
28.53555 391.000
28.59692 354.000
28.65830 392.000
28.71967 377.000
28.78105 341.000
28.84243 393.000
28.90380 384.000
28.96518 375.000
29.02655 372.000
29.08793 346.000
29.14931 393.000
29.21068 355.000
29.27206 359.000
29.33343 389.000
29.39481 362.000
29.45619 358.000
29.51756 411.000
29.57894 413.000
29.64031 416.000
29.70169 442.000
29.76307 462.000
29.82444 496.000
29.88582 484.000
29.94719 427.000
30.00857 427.000
30.06995 416.000
30.13132 395.000
30.19270 420.000
30.25407 448.000
30.31545 432.000
30.37683 416.000
30.43820 413.000
30.49958 408.000
30.56095 398.000
30.62233 392.000
30.68371 414.000
30.74508 495.000
30.80646 504.000
30.86783 489.000
30.92921 596.000
30.99059 620.000
31.05196 649.000
31.11334 653.000
31.17471 541.000
31.23609 577.000
31.29747 502.000
31.35884 527.000
31.42022 523.000
31.48159 469.000
31.54297 398.000
31.60434 416.000
31.66572 395.000
31.72710 361.000
31.78847 429.000
31.84985 390.000
31.91122 371.000
31.97260 371.000
32.03398 376.000
32.09535 367.000
32.15673 380.000
32.21810 362.000
32.27948 388.000
32.34086 380.000
32.40223 381.000
32.46361 398.000
32.52498 399.000
32.58636 396.000
32.64774 381.000
32.70911 429.000
32.77049 433.000
32.83186 486.000
32.89324 506.000
32.95462 546.000
33.01599 640.000
33.07737 825.000
33.13874 968.000
33.20012 832.000
33.26150 761.000
33.32287 540.000
33.38425 503.000
33.44562 429.000
33.50700 393.000
33.56838 365.000
33.62975 401.000
33.69113 378.000
33.75250 364.000
33.81388 325.000
33.87526 380.000
33.93663 331.000
33.99801 367.000
34.05938 355.000
34.12076 331.000
34.18214 322.000
34.24351 352.000
34.30489 355.000
34.36626 389.000
34.42764 351.000
34.48902 375.000
34.55039 395.000
34.61177 374.000
34.67314 410.000
34.73452 397.000
34.79590 413.000
34.85727 414.000
34.91865 484.000
34.98002 463.000
35.04140 443.000
35.10278 503.000
35.16415 621.000
35.22553 698.000
35.28690 680.000
35.34828 668.000
35.40966 673.000
35.47103 621.000
35.53241 716.000
35.59378 862.000
35.65516 922.000
35.71654 784.000
35.77791 670.000
35.83929 561.000
35.90066 553.000
35.96204 517.000
36.02342 513.000
36.08479 563.000
36.14617 579.000
36.20754 538.000
36.26892 584.000
36.33030 706.000
36.39167 918.000
36.45305 1462.000
36.51442 1883.000
36.57580 1517.000
36.63718 1141.000
36.69855 835.000
36.75993 777.000
36.82130 749.000
36.88268 715.000
36.94406 635.000
37.00543 646.000
37.06681 565.000
37.12818 546.000
37.18956 474.000
37.25094 485.000
37.31231 470.000
37.37369 452.000
37.43506 453.000
37.49644 409.000
37.55782 405.000
37.61919 390.000
37.68057 382.000
37.74194 396.000
37.80332 415.000
37.86469 379.000
37.92607 350.000
37.98745 345.000
38.04882 362.000
38.11020 351.000
38.17157 354.000
38.23295 326.000
38.29433 318.000
38.35570 328.000
38.41708 343.000
38.47845 303.000
38.53983 318.000
38.60121 350.000
38.66258 307.000
38.72396 294.000
38.78533 325.000
38.84671 339.000
38.90809 346.000
38.96946 343.000
39.03084 338.000
39.09221 386.000
39.15359 410.000
39.21497 451.000
39.27634 542.000
39.33772 754.000
39.39909 1433.000
39.46047 1551.000
39.52185 1028.000
39.58322 673.000
39.64460 385.000
39.70597 381.000
39.76735 349.000
39.82873 330.000
39.89010 316.000
39.95148 324.000
40.01285 383.000
40.07423 372.000
40.13561 454.000
40.19698 734.000
40.25836 912.000
40.31973 800.000
40.38111 625.000
40.44249 438.000
40.50386 373.000
40.56524 465.000
40.62661 451.000
40.68799 579.000
40.74937 665.000
40.81074 720.000
40.87212 688.000
40.93349 649.000
40.99487 653.000
41.05625 483.000
41.11762 444.000
41.17900 397.000
41.24037 367.000
41.30175 376.000
41.36313 376.000
41.42450 284.000
41.48588 333.000
41.54725 303.000
41.60863 261.000
41.67001 301.000
41.73138 320.000
41.79276 310.000
41.85413 309.000
41.91551 309.000
41.97689 317.000
42.03826 309.000
42.09964 344.000
42.16101 404.000
42.22239 459.000
42.28377 607.000
42.34514 917.000
42.40652 1267.000
42.46789 1059.000
42.52927 803.000
42.59065 521.000
42.65202 382.000
42.71340 396.000
42.77477 367.000
42.83615 377.000
42.89753 344.000
42.95890 292.000
43.02028 320.000
43.08165 319.000
43.14303 361.000
43.20441 315.000
43.26578 326.000
43.32716 299.000
43.38853 320.000
43.44991 312.000
43.51129 315.000
43.57266 307.000
43.63404 313.000
43.69541 294.000
43.75679 265.000
43.81817 301.000
43.87954 334.000
43.94092 319.000
44.00229 373.000
44.06367 336.000
44.12504 360.000
44.18642 334.000
44.24780 393.000
44.30917 392.000
44.37055 409.000
44.43192 451.000
44.49330 427.000
44.55468 451.000
44.61605 478.000
44.67743 474.000
44.73880 468.000
44.80018 489.000
44.86156 406.000
44.92293 464.000
44.98431 435.000
45.04568 426.000
45.10706 418.000
45.16844 406.000
45.22981 369.000
45.29119 375.000
45.35256 412.000
45.41394 412.000
45.47532 381.000
45.53669 421.000
45.59807 504.000
45.65944 645.000
45.72082 936.000
45.78220 929.000
45.84357 696.000
45.90495 549.000
45.96632 407.000
46.02770 380.000
46.08908 349.000
46.15045 346.000
46.21183 339.000
46.27320 294.000
46.33458 331.000
46.39596 326.000
46.45733 318.000
46.51871 305.000
46.58008 319.000
46.64146 269.000
46.70284 263.000
46.76421 274.000
46.82559 300.000
46.88696 299.000
46.94834 303.000
47.00972 272.000
47.07109 258.000
47.13247 304.000
47.19384 307.000
47.25522 293.000
47.31660 293.000
47.37797 268.000
47.43935 257.000
47.50072 302.000
47.56210 311.000
47.62348 292.000
47.68485 286.000
47.74623 257.000
47.80760 275.000
47.86898 330.000
47.93036 338.000
47.99173 447.000
48.05311 373.000
48.11448 372.000
48.17586 355.000
48.23724 312.000
48.29861 303.000
48.35999 289.000
48.42136 294.000
48.48274 268.000
48.54412 293.000
48.60549 256.000
48.66687 285.000
48.72824 274.000
48.78962 295.000
48.85100 298.000
48.91237 299.000
48.97375 291.000
49.03512 304.000
49.09650 330.000
49.15788 307.000
49.21925 371.000
49.28063 386.000
49.34200 461.000
49.40338 481.000
49.46476 498.000
49.52613 490.000
49.58751 448.000
49.64888 401.000
49.71026 368.000
49.77164 414.000
49.83301 499.000
49.89439 573.000
49.95576 829.000
50.01714 1551.000
50.07851 2791.000
50.13989 2304.000
50.20127 1660.000
50.26264 1252.000
50.32402 535.000
50.38539 357.000
50.44677 306.000
50.50815 294.000
50.56952 333.000
50.63090 316.000
50.69227 283.000
50.75365 318.000
50.81503 280.000
50.87640 264.000
50.93778 282.000
50.99915 276.000
51.06053 314.000
51.12191 294.000
51.18328 277.000
51.24466 264.000
51.30603 270.000
51.36741 275.000
51.42879 283.000
51.49016 269.000
51.55154 246.000
51.61291 273.000
51.67429 232.000
51.73567 265.000
51.79704 272.000
51.85842 268.000
51.91979 287.000
51.98117 255.000
52.04255 259.000
52.10392 289.000
52.16530 264.000
52.22667 268.000
52.28805 301.000
52.34943 306.000
52.41080 245.000
52.47218 299.000
52.53355 301.000
52.59493 284.000
52.65631 277.000
52.71768 324.000
52.77906 275.000
52.84043 290.000
52.90181 297.000
52.96319 319.000
53.02456 331.000
53.08594 337.000
53.14731 320.000
53.20869 379.000
53.27007 366.000
53.33144 342.000
53.39282 384.000
53.45419 385.000
53.51557 382.000
53.57695 410.000
53.63832 388.000
53.69970 433.000
53.76107 467.000
53.82245 546.000
53.88383 615.000
53.94520 604.000
54.00658 634.000
54.06795 681.000
54.12933 606.000
54.19071 600.000
54.25208 551.000
54.31346 507.000
54.37483 438.000
54.43621 430.000
54.49759 402.000
54.55896 395.000
54.62034 446.000
54.68171 559.000
54.74309 738.000
54.80447 1064.000
54.86584 1012.000
54.92722 731.000
54.98859 757.000
55.04997 581.000
55.11135 521.000
55.17272 549.000
55.23410 641.000
55.29547 695.000
55.35685 529.000
55.41823 562.000
55.47960 480.000
55.54098 378.000
55.60235 354.000
55.66373 335.000
55.72511 352.000
55.78648 380.000
55.84786 374.000
55.90923 317.000
55.97061 302.000
56.03199 322.000
56.09336 342.000
56.15474 325.000
56.21611 332.000
56.27749 360.000
56.33886 310.000
56.40024 316.000
56.46162 333.000
56.52299 331.000
56.58437 372.000
56.64574 343.000
56.70712 331.000
56.76850 373.000
56.82987 340.000
56.89125 365.000
56.95262 369.000
57.01400 373.000
57.07538 417.000
57.13675 420.000
57.19813 446.000
57.25950 453.000
57.32088 473.000
57.38226 474.000
57.44363 459.000
57.50501 539.000
57.56638 497.000
57.62776 472.000
57.68914 428.000
57.75051 432.000
57.81189 381.000
57.87326 386.000
57.93464 405.000
57.99602 362.000
58.05739 399.000
58.11877 374.000
58.18014 390.000
58.24152 367.000
58.30290 408.000
58.36427 387.000
58.42565 413.000
58.48702 415.000
58.54840 414.000
58.60978 409.000
58.67115 394.000
58.73253 429.000
58.79390 392.000
58.85528 445.000
58.91666 468.000
58.97803 509.000
59.03941 501.000
59.10078 498.000
59.16216 480.000
59.22354 474.000
59.28491 517.000
59.34629 496.000
59.40766 538.000
59.46904 498.000
59.53042 550.000
59.59179 614.000
59.65317 627.000
59.71454 766.000
59.77592 1096.000
59.83730 1712.000
59.89867 2187.000
59.96005 1840.000
60.02142 1331.000
60.08280 1338.000
60.14418 853.000
60.20555 596.000
60.26693 575.000
60.32830 505.000
60.38968 563.000
60.45106 615.000
60.51243 608.000
60.57381 639.000
60.63518 669.000
60.69656 636.000
60.75794 608.000
60.81931 529.000
60.88069 515.000
60.94206 517.000
61.00344 460.000
61.06482 440.000
61.12619 464.000
61.18757 456.000
61.24894 395.000
61.31032 386.000
61.37170 424.000
61.43307 402.000
61.49445 414.000
61.55582 383.000
61.61720 379.000
61.67858 349.000
61.73995 389.000
61.80133 377.000
61.86270 400.000
61.92408 385.000
61.98546 395.000
62.04683 372.000
62.10821 398.000
62.16958 415.000
62.23096 434.000
62.29234 489.000
62.35371 481.000
62.41509 516.000
62.47646 531.000
62.53784 516.000
62.59921 526.000
62.66059 537.000
62.72197 446.000
62.78334 499.000
62.84472 458.000
62.90609 440.000
62.96747 430.000
63.02885 452.000
63.09022 450.000
63.15160 407.000
63.21297 416.000
63.27435 465.000
63.33573 404.000
63.39710 411.000
63.45848 442.000
63.51985 452.000
63.58123 441.000
63.64261 461.000
63.70398 478.000
63.76536 503.000
63.82673 573.000
63.88811 695.000
63.94949 907.000
64.01086 849.000
64.07224 687.000
64.13361 714.000
64.19499 651.000
64.25637 550.000
64.31774 526.000
64.37912 564.000
64.44049 567.000
64.50187 603.000
64.56325 649.000
64.62462 677.000
64.68600 712.000
64.74737 683.000
64.80875 643.000
64.87013 635.000
64.93150 670.000
64.99288 638.000
65.05425 692.000
65.11563 650.000
65.17701 650.000
65.23838 641.000
65.29976 644.000
65.36113 603.000
65.42251 604.000
65.48389 572.000
65.54526 624.000
65.60664 617.000
65.66801 625.000
65.72939 632.000
65.79077 575.000
65.85214 613.000
65.91352 594.000
65.97489 538.000
66.03627 532.000
66.09765 534.000
66.15902 556.000
66.22040 549.000
66.28177 573.000
66.34315 522.000
66.40453 549.000
66.46590 491.000
66.52728 549.000
66.58865 541.000
66.65003 482.000
66.71141 513.000
66.77278 480.000
66.83416 504.000
66.89553 498.000
66.95691 495.000
67.01829 478.000
67.07966 470.000
67.14104 447.000
67.20241 457.000
67.26379 506.000
67.32517 509.000
67.38654 549.000
67.44792 540.000
67.50929 697.000
67.57067 888.000
67.63205 1393.000
67.69342 1508.000
67.75480 1136.000
67.81617 1053.000
67.87755 1145.000
67.93893 1124.000
68.00030 1345.000
68.06168 1898.000
68.12305 2035.000
68.18443 1651.000
68.24581 1818.000
68.30718 1661.000
68.36856 1016.000
68.42993 829.000
68.49131 714.000
68.55268 568.000
68.61406 432.000
68.67544 403.000
68.73681 389.000
68.79819 401.000
68.85956 392.000
68.92094 397.000
68.98232 378.000
69.04369 355.000
69.10507 377.000
69.16644 385.000
69.22782 420.000
69.28920 376.000
69.35057 395.000
69.41195 380.000
69.47332 391.000
69.53470 411.000
69.59608 405.000
69.65745 390.000
69.71883 383.000
69.78020 411.000
69.84158 402.000
69.90296 397.000
69.96433 366.000
70.02571 434.000
70.08708 425.000
70.14846 400.000
70.20984 458.000
70.27121 449.000
70.33259 415.000
70.39396 428.000
70.45534 409.000
70.51672 408.000
70.57809 432.000
70.63947 372.000
70.70084 399.000
70.76222 391.000
70.82360 391.000
70.88497 396.000
70.94635 425.000
71.00772 401.000
71.06910 415.000
71.13048 384.000
71.19185 397.000
71.25323 352.000
71.31460 372.000
71.37598 355.000
71.43736 393.000
71.49873 353.000
71.56011 356.000
71.62148 384.000
71.68286 402.000
71.74424 361.000
71.80561 386.000
71.86699 398.000
71.92836 381.000
71.98974 385.000
72.05112 373.000
72.11249 358.000
72.17387 326.000
72.23524 363.000
72.29662 298.000
72.35800 356.000
72.41937 341.000
72.48075 292.000
72.54212 329.000
72.60350 350.000
72.66488 292.000
72.72625 340.000
72.78763 337.000
72.84900 329.000
72.91038 341.000
72.97176 340.000
73.03313 314.000
73.09451 350.000
73.15588 373.000
73.21726 387.000
73.27864 442.000
73.34001 601.000
73.40139 769.000
73.46276 664.000
73.52414 533.000
73.58552 560.000
73.64689 569.000
73.70827 448.000
73.76964 419.000
73.83102 405.000
73.89240 409.000
73.95377 430.000
74.01515 416.000
74.07652 416.000
74.13790 416.000
74.19928 470.000
74.26065 412.000
74.32203 441.000
74.38340 416.000
74.44478 434.000
74.50616 440.000
74.56753 426.000
74.62891 402.000
74.69028 412.000
74.75166 433.000
74.81303 457.000
74.87441 460.000
74.93579 515.000
74.99716 529.000
75.05854 478.000
75.11991 479.000
75.18129 491.000
75.24267 483.000
75.30404 501.000
75.36542 523.000
75.42679 553.000
75.48817 700.000
75.54955 872.000
75.61092 850.000
75.67230 690.000
75.73367 630.000
75.79505 602.000
75.85643 544.000
75.91780 424.000
75.97918 405.000
76.04055 385.000
76.10193 364.000
76.16331 362.000
76.22468 358.000
76.28606 356.000
76.34743 326.000
76.40881 359.000
76.47019 336.000
76.53156 359.000
76.59294 383.000
76.65431 332.000
76.71569 362.000
76.77707 350.000
76.83844 373.000
76.89982 368.000
76.96119 355.000
77.02257 340.000
77.08395 354.000
77.14532 335.000
77.20670 386.000
77.26807 368.000
77.32945 355.000
77.39083 429.000
77.45220 430.000
77.51358 613.000
77.57495 606.000
77.63633 580.000
77.69771 482.000
77.75908 521.000
77.82046 471.000
77.88183 427.000
77.94321 388.000
78.00459 377.000
78.06596 306.000
78.12734 345.000
78.18871 307.000
78.25009 329.000
78.31147 293.000
78.37284 324.000
78.43422 311.000
78.49559 295.000
78.55697 283.000
78.61835 314.000
78.67972 332.000
78.74110 305.000
78.80247 306.000
78.86385 326.000
78.92523 329.000
78.98660 298.000
79.04798 283.000
79.10935 274.000
79.17073 297.000
79.23211 317.000
79.29348 286.000
79.35486 302.000
79.41623 288.000
79.47761 337.000
79.53899 396.000
79.60036 435.000
79.66174 487.000
79.72311 610.000
79.78449 808.000
79.84587 874.000
79.90724 707.000
79.96862 652.000
80.00953 677.000